{
  "resourceType": "MedicationAdministration",
  "id": "medadmin0301",
  "contained": [
    {
      "resourceType": "Medication",
      "id": "med0301"
    },
    {
      "resourceType": "Provenance",
      "id": "signature",
      "target": [
        {
          "reference": "ServiceRequest/physiotherapy"
        }
      ],
      "agent": [
        {
          "role": [
            {
              "coding": [
                {
                  "system": "http://terminology.hl7.org/CodeSystem/v3-ParticipationType",
                  "code": "AUT"
                }
              ]
            }
          ],
          "who": {
            "reference": "Practitioner/example",
            "display": "Dr Adam Careful"
          }
        }
      ]
    }
  ],
  "status": "in-progress",
  "medicationReference": {
    "reference": "#med0301"
  },
  "subject": {
    "reference": "Patient/pat1",
    "display": "Donald Duck"
  },
  "encounter": {
    "reference": "Encounter/f001",
    "display": "encounter who leads to this prescription"
  },
  "occurencePeriod": {
    "start": "2015-01-15T14:30:00+01:00"
  },
  "performer": [
    {
      "actor": {
        "reference": "Practitioner/f007",
        "display": "Patrick Pump"
      }
    }
  ],
  "request": {
    "reference": "MedicationRequest/medrx0318"
  },
  "eventHistory": [
    {
      "reference": "#signature",
      "display": "Author's Signature"
    }
  ]
}